rep_id,timestamp,qw,qx,qy,qz,roll,pitch,yaw,ax,ay,az
5,0.0,0.63,0.47,0.51,-0.34,82.41,75.4,11.84,-0.93,0.24,0.02
5,0.025,0.63,0.47,0.51,-0.34,82.43,75.39,11.85,-0.92,0.24,0.02
5,0.05,0.63,0.47,0.51,-0.34,82.39,75.4,11.83,-0.94,0.23,0.0
5,0.075,0.63,0.47,0.51,-0.34,82.36,75.4,11.78,-0.94,0.24,0.02
5,0.1,0.63,0.47,0.51,-0.34,82.36,75.4,11.78,-0.94,0.24,0.02
5,0.125,0.63,0.47,0.51,-0.34,82.34,75.39,11.68,-0.92,0.23,0.02
5,0.15,0.63,0.47,0.51,-0.34,82.32,75.37,11.59,-0.93,0.26,0.01
5,0.175,0.63,0.47,0.51,-0.34,82.29,75.35,11.5,-0.93,0.26,0.0
5,0.2,0.63,0.47,0.51,-0.34,82.22,75.34,11.4,-0.91,0.24,0.02
5,0.225,0.63,0.47,0.51,-0.34,82.2,75.35,11.34,-0.92,0.23,0.01
5,0.25,0.63,0.47,0.51,-0.34,82.2,75.35,11.34,-0.92,0.25,0.01
5,0.275,0.63,0.47,0.51,-0.34,82.2,75.34,11.23,-0.95,0.25,0.01
5,0.3,0.63,0.47,0.5,-0.34,82.1,75.32,11.04,-0.93,0.25,0.02
5,0.325,0.63,0.47,0.5,-0.34,82.03,75.3,10.92,-0.93,0.25,0.0
5,0.35,0.63,0.47,0.5,-0.34,82.03,75.3,10.89,-0.94,0.24,0.0
5,0.375,0.63,0.47,0.5,-0.34,82.0,75.29,10.81,-0.93,0.27,0.0
5,0.4,0.63,0.47,0.5,-0.34,81.99,75.29,10.77,-0.92,0.24,0.02
5,0.425,0.63,0.47,0.5,-0.34,81.94,75.28,10.7,-0.94,0.23,0.0
5,0.45,0.63,0.47,0.5,-0.34,81.89,75.29,10.59,-0.93,0.25,0.02
5,0.475,0.63,0.47,0.5,-0.34,81.89,75.29,10.59,-0.93,0.25,0.02
5,0.5,0.63,0.47,0.5,-0.34,81.84,75.31,10.53,-0.92,0.25,0.02
5,0.525,0.63,0.47,0.5,-0.34,81.82,75.32,10.5,-0.93,0.24,0.01
5,0.55,0.63,0.47,0.5,-0.34,81.75,75.31,10.38,-0.94,0.24,0.02
5,0.575,0.63,0.47,0.5,-0.34,81.69,75.3,10.22,-0.93,0.25,0.03
5,0.6,0.63,0.47,0.5,-0.34,81.68,75.3,10.11,-0.92,0.23,0.02
5,0.625,0.63,0.47,0.5,-0.34,81.76,75.32,10.1,-0.93,0.22,0.0
5,0.65,0.63,0.47,0.5,-0.34,81.76,75.32,10.1,-0.93,0.22,0.0
5,0.675,0.63,0.47,0.5,-0.34,81.8,75.32,9.97,-0.93,0.25,0.0
5,0.7,0.63,0.47,0.5,-0.34,81.78,75.31,9.82,-0.93,0.26,0.02
5,0.725,0.63,0.47,0.5,-0.35,81.81,75.31,9.71,-0.93,0.24,0.0
5,0.75,0.63,0.47,0.5,-0.35,81.89,75.31,9.63,-0.91,0.24,0.02
5,0.775,0.62,0.48,0.5,-0.35,81.94,75.31,9.58,-0.94,0.25,0.01
5,0.8,0.62,0.48,0.5,-0.35,82.03,75.31,9.52,-0.92,0.23,0.02
5,0.825,0.62,0.48,0.5,-0.35,82.18,75.32,9.48,-0.95,0.24,0.0
5,0.85,0.62,0.48,0.5,-0.35,82.21,75.32,9.36,-0.94,0.25,0.01
5,0.875,0.62,0.48,0.5,-0.35,82.24,75.31,9.31,-0.93,0.24,0.02
5,0.9,0.62,0.48,0.5,-0.35,82.33,75.32,9.28,-0.92,0.25,0.0
5,0.925,0.62,0.48,0.5,-0.35,82.33,75.32,9.28,-0.92,0.25,0.0
5,0.95,0.62,0.48,0.5,-0.35,82.39,75.31,9.24,-0.93,0.25,0.01
5,0.975,0.62,0.48,0.5,-0.35,82.41,75.31,9.24,-0.94,0.24,0.02
5,1.0,0.62,0.48,0.5,-0.35,82.42,75.32,9.24,-0.94,0.23,0.02
5,1.025,0.62,0.48,0.5,-0.35,82.45,75.33,9.26,-0.93,0.26,0.01
5,1.05,0.62,0.48,0.5,-0.35,82.46,75.34,9.31,-0.93,0.26,0.01
5,1.075,0.62,0.48,0.5,-0.35,82.46,75.34,9.31,-0.93,0.26,0.01
5,1.1,0.62,0.48,0.5,-0.35,82.39,75.34,9.3,-0.92,0.24,0.01
5,1.125,0.62,0.48,0.5,-0.35,82.26,75.35,9.27,-0.93,0.25,-0.0
5,1.15,0.62,0.48,0.5,-0.35,82.03,75.33,9.16,-0.94,0.25,0.02
5,1.175,0.62,0.48,0.5,-0.35,81.87,75.32,9.23,-1.01,0.27,0.08
5,1.2,0.63,0.47,0.5,-0.35,81.37,75.34,9.16,-1.0,0.23,-0.07
5,1.225,0.63,0.47,0.5,-0.35,81.37,75.34,9.16,-1.0,0.23,-0.07
5,1.25,0.63,0.47,0.5,-0.35,79.96,75.27,8.15,-0.98,0.13,0.2
5,1.275,0.63,0.47,0.5,-0.35,78.42,75.05,6.85,-1.02,0.29,0.25
5,1.3,0.64,0.47,0.5,-0.34,76.73,74.78,5.42,-1.01,0.21,0.17
5,1.325,0.64,0.46,0.49,-0.34,73.86,74.46,3.09,-1.08,0.24,0.16
5,1.35,0.64,0.46,0.49,-0.34,73.86,74.46,3.09,-1.08,0.24,0.16
5,1.375,0.65,0.45,0.49,-0.34,68.74,73.99,359.16,-1.2,0.08,0.43
5,1.4,0.67,0.44,0.48,-0.34,62.42,73.04,354.36,-1.16,0.13,0.48
5,1.425,0.68,0.43,0.47,-0.34,56.33,71.74,349.13,-1.21,0.24,0.54
5,1.45,0.7,0.41,0.46,-0.34,49.04,70.06,343.06,-1.25,0.04,0.55
5,1.475,0.71,0.4,0.45,-0.35,43.94,68.6,338.77,-1.28,0.31,0.86
5,1.5,0.73,0.37,0.43,-0.36,34.26,65.25,330.57,-1.34,0.31,0.58
5,1.525,0.75,0.35,0.42,-0.36,29.14,62.91,326.32,-1.26,0.26,0.56
5,1.55,0.75,0.35,0.42,-0.36,29.14,62.91,326.32,-1.26,0.26,0.56
5,1.575,0.77,0.32,0.39,-0.37,22.68,58.38,321.02,-1.28,0.21,0.94
5,1.6,0.79,0.29,0.36,-0.39,17.39,53.31,316.55,-1.25,0.15,0.72
5,1.625,0.81,0.25,0.33,-0.4,12.32,47.89,312.93,-1.27,0.02,0.84
5,1.65,0.83,0.21,0.29,-0.41,8.88,42.12,310.53,-1.04,0.15,1.02
5,1.675,0.83,0.21,0.29,-0.41,8.88,42.12,310.53,-1.04,0.15,1.02
5,1.7,0.85,0.17,0.24,-0.43,5.37,34.44,308.1,-1.02,0.11,0.82
5,1.725,0.85,0.14,0.22,-0.43,3.53,30.56,307.13,-0.87,0.38,0.83
5,1.75,0.86,0.11,0.18,-0.44,1.41,24.68,305.83,-0.64,-0.09,0.66
5,1.775,0.87,0.07,0.15,-0.46,359.26,18.96,304.49,-0.58,-0.05,0.85
5,1.8,0.87,0.03,0.12,-0.47,356.94,13.66,303.11,-0.43,0.02,0.92
5,1.825,0.87,-0.0,0.08,-0.48,355.24,8.5,301.69,-0.38,-0.07,0.63
5,1.85,0.87,-0.0,0.08,-0.48,355.24,8.5,301.69,-0.38,-0.07,0.63
5,1.875,0.86,-0.03,0.05,-0.5,354.18,3.55,300.02,-0.25,0.36,0.64
5,1.9,0.85,-0.06,0.03,-0.51,352.63,-0.83,298.25,-0.27,0.02,0.6
5,1.925,0.84,-0.09,0.0,-0.53,351.29,-5.13,296.4,-0.18,0.27,0.7
5,1.95,0.83,-0.12,-0.02,-0.54,350.12,-9.26,294.58,-0.09,0.04,0.52
5,1.975,0.82,-0.14,-0.04,-0.55,348.93,-12.96,293.31,-0.08,-0.05,0.22
5,2.0,0.81,-0.17,-0.06,-0.56,347.74,-16.6,292.71,0.11,-0.02,0.53
5,2.025,0.81,-0.17,-0.06,-0.56,347.74,-16.6,292.71,0.11,-0.02,0.53
5,2.05,0.8,-0.19,-0.07,-0.56,346.33,-19.51,292.66,0.11,-0.03,0.39
5,2.075,0.8,-0.21,-0.09,-0.56,345.58,-21.95,293.03,0.29,-0.18,0.28
5,2.1,0.79,-0.21,-0.1,-0.55,345.22,-23.17,293.35,0.34,-0.12,0.22
5,2.125,0.79,-0.22,-0.11,-0.55,344.96,-24.47,293.9,0.46,-0.03,0.33
5,2.15,0.8,-0.23,-0.11,-0.55,344.56,-25.13,294.59,0.46,-0.15,0.44
5,2.175,0.8,-0.22,-0.11,-0.54,344.73,-25.26,295.14,0.53,0.07,0.37
5,2.2,0.8,-0.22,-0.11,-0.54,344.77,-24.88,295.57,0.5,-0.16,0.49
5,2.225,0.8,-0.22,-0.11,-0.54,344.77,-24.88,295.57,0.5,-0.16,0.49
5,2.25,0.8,-0.22,-0.11,-0.54,344.97,-24.14,295.89,0.48,-0.12,0.49
5,2.275,0.81,-0.21,-0.1,-0.53,345.12,-23.15,296.15,0.45,-0.12,0.55
5,2.3,0.81,-0.21,-0.09,-0.53,345.16,-21.8,296.25,0.4,-0.25,0.53
5,2.325,0.82,-0.19,-0.08,-0.53,345.82,-20.25,296.27,0.48,-0.14,0.53
5,2.35,0.82,-0.18,-0.07,-0.53,346.46,-18.01,296.16,0.3,-0.19,0.45
5,2.375,0.82,-0.16,-0.05,-0.53,347.29,-15.3,295.88,0.2,-0.09,0.32
5,2.4,0.82,-0.16,-0.05,-0.53,347.29,-15.3,295.88,0.2,-0.09,0.32
5,2.425,0.83,-0.15,-0.04,-0.53,348.15,-13.26,295.63,0.13,0.11,0.53
5,2.45,0.83,-0.12,-0.01,-0.53,348.69,-8.63,295.52,0.03,-0.16,0.6
5,2.475,0.83,-0.11,0.01,-0.53,349.09,-6.03,295.64,-0.08,0.07,0.59
5,2.5,0.84,-0.08,0.03,-0.53,350.18,-1.81,295.78,-0.22,0.04,0.54
5,2.525,0.84,-0.05,0.06,-0.52,351.05,2.86,296.43,-0.3,-0.05,0.42
5,2.55,0.85,-0.03,0.1,-0.51,351.42,8.05,297.4,-0.45,0.23,0.63
5,2.575,0.85,-0.01,0.12,-0.5,351.63,11.76,298.1,-0.52,-0.11,0.59
5,2.6,0.85,0.02,0.16,-0.49,352.4,17.26,299.44,-0.58,0.1,0.73
5,2.625,0.85,0.04,0.19,-0.47,352.91,21.18,300.38,-0.69,-0.09,0.51
5,2.65,0.85,0.04,0.19,-0.47,352.91,21.18,300.38,-0.69,-0.09,0.51
5,2.675,0.84,0.08,0.24,-0.45,354.58,29.04,302.11,-0.97,-0.03,0.75
5,2.7,0.84,0.1,0.27,-0.44,355.49,32.97,303.31,-1.04,-0.08,0.86
5,2.725,0.83,0.13,0.3,-0.42,357.51,38.65,305.11,-1.14,-0.01,0.65
5,2.75,0.82,0.16,0.34,-0.41,359.21,44.63,306.95,-1.27,0.27,0.83
5,2.775,0.81,0.18,0.37,-0.39,0.02,48.73,308.77,-1.39,-0.12,0.54
5,2.8,0.79,0.21,0.41,-0.36,4.17,55.95,312.97,-1.33,0.48,0.61
5,2.825,0.79,0.21,0.41,-0.36,4.17,55.95,312.97,-1.33,0.48,0.61
5,2.85,0.78,0.24,0.44,-0.35,8.07,60.97,316.66,-1.41,-0.07,0.67
5,2.875,0.76,0.26,0.47,-0.33,12.18,65.61,321.42,-1.59,-0.15,0.52
5,2.9,0.74,0.28,0.49,-0.31,18.69,69.19,327.12,-1.37,0.13,0.85
5,2.925,0.73,0.3,0.51,-0.3,26.92,71.97,335.17,-1.32,-0.13,0.65
5,2.95,0.72,0.32,0.52,-0.29,37.1,73.84,344.46,-1.2,0.18,0.74
5,2.975,0.71,0.34,0.53,-0.29,44.27,74.84,350.52,-1.27,0.15,0.46
5,3.0,0.69,0.36,0.54,-0.28,55.67,75.79,359.82,-1.14,0.02,0.23
5,3.025,0.69,0.36,0.54,-0.28,55.67,75.79,359.82,-1.14,0.02,0.23
5,3.05,0.68,0.39,0.54,-0.28,66.31,76.02,8.83,-1.13,0.16,0.28
5,3.075,0.66,0.4,0.55,-0.28,75.85,75.78,17.15,-1.03,-0.01,0.41
5,3.1,0.65,0.42,0.55,-0.27,84.91,75.34,25.01,-1.12,-0.03,0.44
5,3.125,0.64,0.44,0.55,-0.27,92.94,74.6,31.46,-1.21,0.13,0.54
5,3.15,0.64,0.44,0.55,-0.27,93.73,74.57,31.68,-0.89,0.05,0.24
5,3.175,0.64,0.44,0.55,-0.27,93.73,74.57,31.68,-0.89,0.05,0.24
5,3.2,0.64,0.44,0.55,-0.28,93.47,74.76,30.4,-0.88,0.19,-0.06
5,3.225,0.63,0.45,0.54,-0.29,92.25,74.99,28.25,-0.96,0.33,-0.09
5,3.25,0.64,0.45,0.54,-0.29,89.98,75.29,25.62,-0.99,0.3,-0.15
5,3.275,0.64,0.44,0.54,-0.3,87.24,75.55,22.51,-1.03,0.31,-0.04
5,3.3,0.64,0.44,0.53,-0.31,84.57,75.79,19.53,-0.95,0.26,0.03
5,3.325,0.64,0.44,0.53,-0.31,84.57,75.79,19.53,-0.95,0.26,0.03
5,3.35,0.64,0.44,0.53,-0.31,82.69,75.99,17.13,-0.96,0.18,-0.04
5,3.375,0.64,0.44,0.53,-0.32,81.78,76.12,15.47,-0.92,0.25,-0.03
5,3.4,0.64,0.45,0.52,-0.32,81.91,76.08,14.65,-0.87,0.22,-0.08
5,3.425,0.63,0.45,0.52,-0.33,82.6,75.94,14.39,-0.88,0.27,-0.12
5,3.45,0.63,0.46,0.52,-0.33,83.27,75.88,14.03,-0.89,0.32,-0.06
5,3.475,0.63,0.46,0.52,-0.33,83.27,75.88,14.03,-0.89,0.32,-0.06
5,3.5,0.63,0.46,0.51,-0.33,84.04,75.94,14.12,-0.9,0.24,-0.05
5,3.525,0.62,0.47,0.51,-0.34,84.77,75.99,14.37,-0.94,0.16,0.03
5,3.55,0.62,0.47,0.51,-0.34,85.49,75.94,14.37,-0.92,0.26,0.05
5,3.575,0.62,0.48,0.51,-0.34,86.51,75.86,14.47,-0.91,0.24,0.04
5,3.6,0.62,0.48,0.51,-0.34,87.87,75.79,15.18,-0.95,0.25,-0.02
5,3.625,0.61,0.48,0.51,-0.35,88.56,75.72,15.53,-0.94,0.25,-0.04
5,3.65,0.61,0.49,0.5,-0.35,89.04,75.61,15.54,-0.92,0.28,0.0
5,3.675,0.61,0.49,0.5,-0.35,89.04,75.61,15.54,-0.92,0.28,0.0
5,3.7,0.61,0.49,0.5,-0.35,89.05,75.58,15.36,-0.94,0.29,0.04
5,3.725,0.61,0.49,0.5,-0.35,88.85,75.6,15.26,-0.91,0.22,0.02
5,3.75,0.61,0.49,0.5,-0.35,88.65,75.61,15.11,-0.98,0.27,0.01
5,3.775,0.61,0.49,0.5,-0.35,88.18,75.62,14.72,-0.96,0.25,-0.02
5,3.8,0.61,0.48,0.5,-0.35,87.61,75.63,14.24,-0.93,0.25,-0.01
5,3.825,0.62,0.48,0.5,-0.35,87.04,75.64,13.88,-0.92,0.23,0.0
5,3.85,0.62,0.48,0.5,-0.35,86.55,75.63,13.49,-0.93,0.24,0.0
5,3.875,0.62,0.48,0.5,-0.35,86.55,75.63,13.49,-0.93,0.24,0.0
5,3.9,0.62,0.48,0.5,-0.35,86.14,75.62,13.05,-0.91,0.25,0.0
5,3.925,0.62,0.48,0.5,-0.35,85.79,75.63,12.78,-0.92,0.25,-0.02
5,3.95,0.62,0.48,0.5,-0.35,85.51,75.65,12.62,-0.93,0.2,-0.02
5,3.975,0.62,0.48,0.5,-0.35,85.32,75.67,12.46,-0.94,0.25,0.01
5,4.0,0.62,0.48,0.5,-0.35,85.24,75.7,12.41,-0.92,0.25,-0.01
5,4.025,0.62,0.48,0.5,-0.35,85.29,75.71,12.51,-0.93,0.2,-0.01
5,4.05,0.62,0.48,0.5,-0.35,85.29,75.71,12.51,-0.93,0.2,-0.01
5,4.075,0.62,0.48,0.5,-0.35,85.45,75.67,12.55,-0.92,0.24,-0.0
5,4.1,0.62,0.48,0.5,-0.35,85.7,75.63,12.62,-0.92,0.29,-0.01
5,4.125,0.62,0.48,0.5,-0.35,85.86,75.6,12.75,-0.92,0.22,-0.03
5,4.15,0.62,0.48,0.5,-0.35,85.84,75.57,12.67,-0.92,0.22,0.0
5,4.175,0.62,0.48,0.5,-0.35,85.84,75.57,12.67,-0.92,0.22,0.0
5,4.2,0.62,0.48,0.5,-0.35,85.83,75.53,12.6,-0.93,0.22,0.02
5,4.225,0.62,0.48,0.5,-0.35,85.89,75.48,12.54,-0.94,0.23,0.01
5,4.25,0.62,0.48,0.5,-0.35,86.05,75.42,12.54,-0.96,0.26,-0.01
5,4.275,0.62,0.49,0.5,-0.35,86.04,75.37,12.4,-0.91,0.25,0.0
5,4.3,0.62,0.49,0.5,-0.35,86.01,75.36,12.35,-0.92,0.25,-0.0
5,4.325,0.62,0.49,0.5,-0.35,86.01,75.36,12.35,-0.92,0.25,-0.0
5,4.35,0.62,0.48,0.5,-0.35,85.9,75.39,12.3,-0.93,0.23,0.0
5,4.375,0.62,0.48,0.5,-0.35,85.76,75.4,12.2,-0.92,0.25,-0.0
5,4.4,0.62,0.48,0.5,-0.35,85.61,75.42,12.14,-0.93,0.25,-0.0
5,4.425,0.62,0.48,0.5,-0.35,85.46,75.47,12.09,-0.91,0.24,0.0
5,4.45,0.62,0.48,0.5,-0.35,85.34,75.54,11.97,-0.93,0.22,0.01
5,4.475,0.62,0.48,0.5,-0.35,85.34,75.54,11.97,-0.93,0.25,0.0
5,4.5,0.62,0.48,0.5,-0.35,85.32,75.59,11.82,-0.93,0.25,0.0
5,4.525,0.62,0.48,0.5,-0.35,85.45,75.65,11.89,-0.92,0.25,-0.02
5,4.55,0.62,0.48,0.5,-0.35,85.52,75.72,11.97,-0.94,0.25,-0.01
5,4.575,0.62,0.48,0.5,-0.35,85.5,75.76,11.98,-0.92,0.23,-0.01
5,4.6,0.62,0.48,0.5,-0.35,85.56,75.79,11.99,-0.93,0.26,0.01
5,4.625,0.62,0.48,0.5,-0.35,85.62,75.8,12.02,-0.93,0.26,0.01
5,4.65,0.62,0.48,0.5,-0.35,85.73,75.8,12.17,-0.93,0.24,-0.0
5,4.675,0.62,0.48,0.5,-0.35,85.78,75.79,12.26,-0.93,0.22,0.01
5,4.7,0.62,0.48,0.5,-0.35,85.73,75.78,12.25,-0.93,0.24,0.02
5,4.725,0.62,0.48,0.5,-0.35,85.73,75.78,12.25,-0.95,0.22,0.02
5,4.75,0.62,0.48,0.5,-0.35,85.73,75.77,12.27,-0.95,0.22,0.02
5,4.775,0.62,0.48,0.5,-0.35,85.76,75.75,12.28,-0.94,0.25,-0.0
5,4.8,0.62,0.48,0.5,-0.35,85.73,75.71,12.26,-0.92,0.25,-0.01
5,4.825,0.62,0.48,0.5,-0.35,85.67,75.69,12.25,-0.93,0.23,0.0
5,4.85,0.62,0.48,0.5,-0.35,85.52,75.65,12.13,-0.94,0.22,-0.01
5,4.875,0.62,0.48,0.5,-0.35,85.31,75.6,11.89,-0.93,0.24,0.02
5,4.9,0.62,0.48,0.5,-0.35,85.17,75.56,11.73,-0.94,0.25,0.01
5,4.925,0.62,0.48,0.5,-0.35,85.07,75.54,11.63,-0.92,0.24,0.0
5,4.95,0.62,0.48,0.5,-0.35,84.88,75.53,11.42,-0.94,0.22,0.0
5,4.975,0.62,0.48,0.5,-0.35,84.72,75.53,11.25,-0.92,0.24,0.0
5,5.0,0.62,0.48,0.5,-0.35,84.59,75.54,11.12,-0.93,0.22,0.0
